# Report-specific parameters
template: plotTemplate.Rmd
templatePackage: clinDataReview
reportTitle: "Laboratory parameters: time profiles by visit"
reportTitleLevel: 1

# Dataset of interest
dataFileName: lb.xpt
dataProcessing:
  - annotate:
    - dataset: dm
      vars: ["RFXSTDTC", "ARM", "ARMCD"]
    - vars: VISIT
      varFct: reorder(VISIT, VISITNUM)
  - filter:
    # safety analysis set: treated-patients
    - var: "RFXSTDTC" 
      value: ""
      rev: true

# Compute number of subjects by visit/treatment/parameter (without missing value)
tableParams:
  var: LBSTRESN
  rowVar: ["LBTEST", "VISIT"]
  colVar: ["ARM", "ARMCD"]
  stats: 'n'
tableProcessing:
  - annotate:
    - vars: ARMCD_n
      varFct: 'paste0(ARMCD, ": N = ", n)'

# Looping parameters
loopingVar: "LBTEST"

# Plot parameters
plotFunction: "scatterplotClinData"
plotParams:
  xVar: "VISIT"
  yVar: "LBSTRESN"
  xLabVars: ["VISIT", "ARMCD_n"]
  aesPointVar:
    colour: "ARM"
    fill: "ARM"
    shape: "LBNRIND"
  aesLineVar:
    group: "USUBJID"
  scalePars:
    - aesthetic: shape
      values: !r-lazy clinUtils::getPaletteCDISC(x = dataI$LBNRIND, var = "NRIND", type = "shape")
  themePars:
      legend.position: "none"
  width: 1000
